=====================================================
Q1 - SDTM DS domain creation using {sdtm.oak}
Run started: 2026-07-19 01:10:44 
=====================================================

G3;
Attaching package: ‘dplyr’

gG3;The following objects are masked from ‘package:stats’:

    filter, lag

gG3;The following objects are masked from ‘package:base’:

    intersect, setdiff, setequal, union

gG3;
Attaching package: ‘pharmaverseraw’

gG3;The following object is masked _by_ ‘.GlobalEnv’:

    ds_raw

gInput records read from pharmaverseraw::ds_raw: 850 

G3;ℹ These terms could not be mapped per the controlled terminology: "Randomized".
gG3;ℹ These terms could not be mapped per the controlled terminology: "Final Lab Visit" and "Final Retrieval Visit".
gG3;ℹ These terms could not be mapped per the controlled terminology: "Unscheduled 6.1", "Unscheduled 1.1", "Unscheduled 5.1", "Unscheduled 4.1", "Unscheduled 8.2", and "Unscheduled 13.1".
gG3;ℹ These terms could not be mapped per the controlled terminology: "Unscheduled 6.1", "Unscheduled 1.1", "Unscheduled 5.1", "Unscheduled 4.1", "Unscheduled 8.2", and "Unscheduled 13.1".
g
Records with USUBJID not found in DM: 0 

----------------- QC SUMMARY -----------------
Output records : 850 (input: 850 )

DSCAT frequency:

 DISPOSITION EVENT        OTHER EVENT PROTOCOL MILESTONE 
               306                290                254 

DSDECOD by DSCAT:
                             
                              DISPOSITION EVENT OTHER EVENT PROTOCOL MILESTONE
  ADVERSE EVENT                              92           0                  0
  COMPLETED                                 110           0                  0
  DEATH                                       3           0                  0
  FINAL LAB VISIT                             0         254                  0
  FINAL RETRIEVAL VISIT                       0          36                  0
  LACK OF EFFICACY                            4           0                  0
  LOST TO FOLLOW-UP                           2           0                  0
  PHYSICIAN DECISION                          3           0                  0
  PROTOCOL VIOLATION                          6           0                  0
  RANDOMIZED                                  0           0                254
  SCREEN FAILURE                             52           0                  0
  STUDY TERMINATED BY SPONSOR                 7           0                  0
  WITHDRAWAL BY SUBJECT                      27           0                  0

VISIT values with missing VISITNUM (expect none):
< table of extent 0 >

Missing values per required variable:
 STUDYID   DOMAIN  USUBJID    DSSEQ   DSTERM  DSDECOD    DSCAT VISITNUM    VISIT 
       0        0        0        0        0        0        0        0        0 
   DSDTC  DSSTDTC   DSSTDY 
       0        0       52 

DSSTDY range: -16 to 286 

DSDECOD breakdown of records with missing DSSTDY (expected: SCREEN FAILURE only, since those subjects have no DM.RFSTDTC to count study day from):

SCREEN FAILURE 
            52 

Written: question_1_sdtm/ds.xpt and question_1_sdtm/ds_domain.rds

----------------- str(ds_domain) -----------------
tibble [850 × 12] (S3: tbl_df/tbl/data.frame)
 $ STUDYID : chr [1:850] "CDISCPILOT01" "CDISCPILOT01" "CDISCPILOT01" "CDISCPILOT01" ...
 $ DOMAIN  : chr [1:850] "DS" "DS" "DS" "DS" ...
 $ USUBJID : chr [1:850] "01-701-1015" "01-701-1015" "01-701-1015" "01-701-1023" ...
  ..- attr(*, "label")= chr "Unique Subject Identifier"
 $ DSSEQ   : int [1:850] 1 2 3 1 2 3 4 1 2 3 ...
 $ DSTERM  : chr [1:850] "Randomized" "Final Lab Visit" "Protocol Completed" "Randomized" ...
 $ DSDECOD : chr [1:850] "RANDOMIZED" "FINAL LAB VISIT" "COMPLETED" "RANDOMIZED" ...
 $ DSCAT   : chr [1:850] "PROTOCOL MILESTONE" "OTHER EVENT" "DISPOSITION EVENT" "PROTOCOL MILESTONE" ...
 $ VISITNUM: num [1:850] 3 13 13 3 5 5 201 3 13 13 ...
 $ VISIT   : chr [1:850] "BASELINE" "WEEK 26" "WEEK 26" "BASELINE" ...
 $ DSDTC   : chr [1:850] "2014-01-02" "2014-07-02T11:45" "2014-07-02" "2012-08-05" ...
 $ DSSTDTC : chr [1:850] "2014-01-02" "2014-07-02" "2014-07-02" "2012-08-05" ...
 $ DSSTDY  : int [1:850] 1 182 182 1 29 29 198 1 180 180 ...

----------------- head(ds_domain, 10) -----------------
# A tibble: 10 × 12
   STUDYID     DOMAIN USUBJID DSSEQ DSTERM DSDECOD DSCAT VISITNUM VISIT DSDTC DSSTDTC
   <chr>       <chr>  <chr>   <int> <chr>  <chr>   <chr>    <dbl> <chr> <chr> <chr>  
 1 CDISCPILOT… DS     01-701…     1 Rando… RANDOM… PROT…        3 BASE… 2014… 2014-0…
 2 CDISCPILOT… DS     01-701…     2 Final… FINAL … OTHE…       13 WEEK… 2014… 2014-0…
 3 CDISCPILOT… DS     01-701…     3 Proto… COMPLE… DISP…       13 WEEK… 2014… 2014-0…
 4 CDISCPILOT… DS     01-701…     1 Rando… RANDOM… PROT…        3 BASE… 2012… 2012-0…
 5 CDISCPILOT… DS     01-701…     2 Adver… ADVERS… DISP…        5 WEEK… 2012… 2012-0…
 6 CDISCPILOT… DS     01-701…     3 Final… FINAL … OTHE…        5 WEEK… 2012… 2012-0…
 7 CDISCPILOT… DS     01-701…     4 Final… FINAL … OTHE…      201 RETR… 2013… 2013-0…
 8 CDISCPILOT… DS     01-701…     1 Rando… RANDOM… PROT…        3 BASE… 2013… 2013-0…
 9 CDISCPILOT… DS     01-701…     2 Final… FINAL … OTHE…       13 WEEK… 2014… 2014-0…
10 CDISCPILOT… DS     01-701…     3 Proto… COMPLE… DISP…       13 WEEK… 2014… 2014-0…
# ℹ 1 more variable: DSSTDY <int>

----------------- sessionInfo -----------------
R version 4.6.1 (2026-06-24)
Platform: x86_64-pc-linux-gnu
Running under: Ubuntu 24.04.4 LTS

Matrix products: default
BLAS:   /usr/lib/x86_64-linux-gnu/openblas-pthread/libblas.so.3 
LAPACK: /usr/lib/x86_64-linux-gnu/openblas-pthread/libopenblasp-r0.3.26.so;  LAPACK version 3.12.0

locale:
 [1] LC_CTYPE=C.UTF-8       LC_NUMERIC=C           LC_TIME=C.UTF-8       
 [4] LC_COLLATE=C.UTF-8     LC_MONETARY=C.UTF-8    LC_MESSAGES=C.UTF-8   
 [7] LC_PAPER=C.UTF-8       LC_NAME=C              LC_ADDRESS=C          
[10] LC_TELEPHONE=C         LC_MEASUREMENT=C.UTF-8 LC_IDENTIFICATION=C   

time zone: UTC
tzcode source: system (glibc)

attached base packages:
[1] stats     graphics  grDevices utils     datasets  methods   base     

other attached packages:
[1] haven_2.5.5           pharmaversesdtm_1.5.0 pharmaverseraw_0.1.1 
[4] dplyr_1.2.1           sdtm.oak_0.2.0       

loaded via a namespace (and not attached):
 [1] gtable_0.3.6       compiler_4.6.1     tidyselect_1.2.1   stringr_1.6.0     
 [5] xml2_1.6.0         assertthat_0.2.1   gtsummary_2.5.1    tidyr_1.3.2       
 [9] systemfonts_1.3.2  scales_1.4.0       textshaping_1.0.5  fastmap_1.2.0     
[13] ggplot2_4.0.3      R6_2.6.1           cards_0.8.1        generics_0.1.4    
[17] knitr_1.51         admiraldev_1.5.0   forcats_1.0.1      tibble_3.3.1      
[21] lubridate_1.9.5    pillar_1.11.1      RColorBrewer_1.1-3 rlang_1.3.0       
[25] utf8_1.2.6         stringi_1.8.7      xfun_0.60          roxygen2_8.0.0    
[29] fs_2.1.0           S7_0.2.2           otel_0.2.0         timechange_0.4.0  
[33] cli_3.6.6          withr_3.0.3        magrittr_2.0.5     digest_0.6.39     
[37] grid_4.6.1         hms_1.1.4          lifecycle_1.0.5    vctrs_0.7.3       
[41] evaluate_1.0.5     glue_1.8.1         farver_2.1.2       ragg_1.5.2        
[45] gt_1.3.0           purrr_1.2.2        tools_4.6.1        pkgconfig_2.0.3   
[49] htmltools_0.5.9   

Run finished: 2026-07-19 01:10:47 
