=====================================================
Q2 - ADaM ADSL creation using {admiral}
Run started: 2026-07-19 01:12:21 
=====================================================

G3;
Attaching package: ‘lubridate’

gG3;The following objects are masked from ‘package:base’:

    date, intersect, setdiff, union

gInput records - dm: 306  vs: 29643  ex: 591  ds: 850  ae: 1191 

EX records: 591 -> valid-dose EX records: 591 

TRTSDTM missing: 52   TRTEDTM missing: 54 

AGEGR9 frequency:

>50 
306 

ITTFL frequency:

  Y 
306 

LSTAVLDT missing: 17 
LSTAVLDT source domain (LALVDOM) frequency:

ADSL   AE   DS   VS 
 102   18   72  114 

----------------- QC SUMMARY -----------------
ADSL subjects: 306  (DM subjects: 306 )

AGEGR9 x AGEGR9N cross-check (should be a clean 1:1 mapping):
     
        3
  >50 306

ITTFL x ARM populated cross-check:
   
    TRUE
  Y  306

Missingness for all newly derived variables:
  AGEGR9  AGEGR9N  TRTSDTM  TRTSTMF  TRTEDTM  TRTETMF    ITTFL LSTAVLDT 
       0        0       52       52       54       54        0       17 

Written: question_2_adam/adsl.xpt and question_2_adam/adsl.rds

----------------- str(adsl) -----------------
tibble [306 × 38] (S3: tbl_df/tbl/data.frame)
 $ STUDYID : chr [1:306] "CDISCPILOT01" "CDISCPILOT01" "CDISCPILOT01" "CDISCPILOT01" ...
  ..- attr(*, "label")= chr "Study Identifier"
 $ USUBJID : chr [1:306] "01-701-1015" "01-701-1023" "01-701-1028" "01-701-1033" ...
  ..- attr(*, "label")= chr "Unique Subject Identifier"
 $ SUBJID  : chr [1:306] "1015" "1023" "1028" "1033" ...
  ..- attr(*, "label")= chr "Subject Identifier for the Study"
 $ RFSTDTC : chr [1:306] "2014-01-02" "2012-08-05" "2013-07-19" "2014-03-18" ...
  ..- attr(*, "label")= chr "Subject Reference Start Date/Time"
 $ RFENDTC : chr [1:306] "2014-07-02" "2012-09-02" "2014-01-14" "2014-04-14" ...
  ..- attr(*, "label")= chr "Subject Reference End Date/Time"
 $ RFXSTDTC: chr [1:306] "2014-01-02" "2012-08-05" "2013-07-19" "2014-03-18" ...
  ..- attr(*, "label")= chr "Date/Time of First Study Treatment"
 $ RFXENDTC: chr [1:306] "2014-07-02" "2012-09-01" "2014-01-14" "2014-03-31" ...
  ..- attr(*, "label")= chr "Date/Time of Last Study Treatment"
 $ RFICDTC : chr [1:306] NA NA NA NA ...
  ..- attr(*, "label")= chr "Date/Time of Informed Consent"
 $ RFPENDTC: chr [1:306] "2014-07-02T11:45" "2013-02-18" "2014-01-14T11:10" "2014-09-15" ...
  ..- attr(*, "label")= chr "Date/Time of End of Participation"
 $ DTHDTC  : chr [1:306] NA NA NA NA ...
  ..- attr(*, "label")= chr "Date/Time of Death"
 $ DTHFL   : chr [1:306] NA NA NA NA ...
  ..- attr(*, "label")= chr "Subject Death Flag"
 $ SITEID  : chr [1:306] "701" "701" "701" "701" ...
  ..- attr(*, "label")= chr "Study Site Identifier"
 $ BRTHDTC : chr [1:306] "1950-12-26" "1948-07-22" "1942-07-11" "1940-03-10" ...
  ..- attr(*, "label")= chr "Date/Time of Birth"
 $ AGE     : num [1:306] 63 64 71 74 77 85 59 68 81 84 ...
  ..- attr(*, "label")= chr "Age"
 $ AGEU    : chr [1:306] "YEARS" "YEARS" "YEARS" "YEARS" ...
  ..- attr(*, "label")= chr "Age Units"
 $ SEX     : chr [1:306] "F" "M" "M" "M" ...
  ..- attr(*, "label")= chr "Sex"
 $ RACE    : chr [1:306] "WHITE" "WHITE" "WHITE" "WHITE" ...
  ..- attr(*, "label")= chr "Race"
 $ ETHNIC  : chr [1:306] "HISPANIC OR LATINO" "HISPANIC OR LATINO" "NOT HISPANIC OR LATINO" "NOT HISPANIC OR LATINO" ...
  ..- attr(*, "label")= chr "Ethnicity"
 $ ARMCD   : chr [1:306] "Pbo" "Pbo" "Xan_Hi" "Xan_Lo" ...
  ..- attr(*, "label")= chr "Planned Arm Code"
 $ ARM     : chr [1:306] "Placebo" "Placebo" "Xanomeline High Dose" "Xanomeline Low Dose" ...
  ..- attr(*, "label")= chr "Description of Planned Arm"
 $ ACTARMCD: chr [1:306] "Pbo" "Pbo" "Xan_Hi" "Xan_Lo" ...
  ..- attr(*, "label")= chr "Actual Arm Code"
 $ ACTARM  : chr [1:306] "Placebo" "Placebo" "Xanomeline High Dose" "Xanomeline Low Dose" ...
  ..- attr(*, "label")= chr "Description of Actual Arm"
 $ COUNTRY : chr [1:306] "USA" "USA" "USA" "USA" ...
  ..- attr(*, "label")= chr "Country"
 $ DMDTC   : chr [1:306] "2013-12-26" "2012-07-22" "2013-07-11" "2014-03-10" ...
  ..- attr(*, "label")= chr "Date/Time of Collection"
 $ DMDY    : num [1:306] -7 -14 -8 -8 -7 -21 NA -9 -13 -7 ...
  ..- attr(*, "label")= chr "Study Day of Collection"
 $ ARMNRS  : chr [1:306] NA NA NA NA ...
  ..- attr(*, "label")= chr "Reason Arm and/or Actual Arm is Null"
 $ ACTARMUD: chr [1:306] NA NA NA NA ...
  ..- attr(*, "label")= chr "Description of Unplanned Actual Arm"
 $ TRTSDTM : POSIXct[1:306], format: "2014-01-02" "2012-08-05" ...
 $ TRTSTMF : chr [1:306] "H" "H" "H" "H" ...
 $ TRTEDTM : POSIXct[1:306], format: "2014-07-02" "2012-09-01" ...
 $ TRTETMF : chr [1:306] "H" "H" "H" "H" ...
 $ TRTEDT  : Date[1:306], format: "2014-07-02" "2012-09-01" ...
 $ AGEGR9  : chr [1:306] ">50" ">50" ">50" ">50" ...
 $ AGEGR9N : num [1:306] 3 3 3 3 3 3 3 3 3 3 ...
 $ ITTFL   : chr [1:306] "Y" "Y" "Y" "Y" ...
 $ LSTAVLDT: Date[1:306], format: "2014-07-02" "2013-02-18" ...
 $ LALVDOM : chr [1:306] "ADSL" "VS" "ADSL" "VS" ...
 $ LALVSEQ : num [1:306] NA 71 NA 71 NA 80 1 NA 51 101 ...
 - attr(*, "label")= chr "Demographics"

----------------- head(adsl, 10) -----------------
# A tibble: 10 × 38
   STUDYID   USUBJID SUBJID RFSTDTC RFENDTC RFXSTDTC RFXENDTC RFICDTC RFPENDTC DTHDTC
   <chr>     <chr>   <chr>  <chr>   <chr>   <chr>    <chr>    <chr>   <chr>    <chr> 
 1 CDISCPIL… 01-701… 1015   2014-0… 2014-0… 2014-01… 2014-07… <NA>    2014-07… <NA>  
 2 CDISCPIL… 01-701… 1023   2012-0… 2012-0… 2012-08… 2012-09… <NA>    2013-02… <NA>  
 3 CDISCPIL… 01-701… 1028   2013-0… 2014-0… 2013-07… 2014-01… <NA>    2014-01… <NA>  
 4 CDISCPIL… 01-701… 1033   2014-0… 2014-0… 2014-03… 2014-03… <NA>    2014-09… <NA>  
 5 CDISCPIL… 01-701… 1034   2014-0… 2014-1… 2014-07… 2014-12… <NA>    2014-12… <NA>  
 6 CDISCPIL… 01-701… 1047   2013-0… 2013-0… 2013-02… 2013-03… <NA>    2013-07… <NA>  
 7 CDISCPIL… 01-701… 1057   <NA>    <NA>    <NA>     <NA>     <NA>    2013-12… <NA>  
 8 CDISCPIL… 01-701… 1097   2014-0… 2014-0… 2014-01… 2014-07… <NA>    2014-07… <NA>  
 9 CDISCPIL… 01-701… 1111   2012-0… 2012-0… 2012-09… 2012-09… <NA>    2013-02… <NA>  
10 CDISCPIL… 01-701… 1115   2012-1… 2013-0… 2012-11… 2013-01… <NA>    2013-05… <NA>  
# ℹ 28 more variables: DTHFL <chr>, SITEID <chr>, BRTHDTC <chr>, AGE <dbl>,
#   AGEU <chr>, SEX <chr>, RACE <chr>, ETHNIC <chr>, ARMCD <chr>, ARM <chr>,
#   ACTARMCD <chr>, ACTARM <chr>, COUNTRY <chr>, DMDTC <chr>, DMDY <dbl>,
#   ARMNRS <chr>, ACTARMUD <chr>, TRTSDTM <dttm>, TRTSTMF <chr>, TRTEDTM <dttm>,
#   TRTETMF <chr>, TRTEDT <date>, AGEGR9 <chr>, AGEGR9N <dbl>, ITTFL <chr>,
#   LSTAVLDT <date>, LALVDOM <chr>, LALVSEQ <dbl>

----------------- sessionInfo -----------------
R version 4.6.1 (2026-06-24)
Platform: x86_64-pc-linux-gnu
Running under: Ubuntu 24.04.4 LTS

Matrix products: default
BLAS:   /usr/lib/x86_64-linux-gnu/openblas-pthread/libblas.so.3 
LAPACK: /usr/lib/x86_64-linux-gnu/openblas-pthread/libopenblasp-r0.3.26.so;  LAPACK version 3.12.0

locale:
 [1] LC_CTYPE=C.UTF-8       LC_NUMERIC=C           LC_TIME=C.UTF-8       
 [4] LC_COLLATE=C.UTF-8     LC_MONETARY=C.UTF-8    LC_MESSAGES=C.UTF-8   
 [7] LC_PAPER=C.UTF-8       LC_NAME=C              LC_ADDRESS=C          
[10] LC_TELEPHONE=C         LC_MEASUREMENT=C.UTF-8 LC_IDENTIFICATION=C   

time zone: UTC
tzcode source: system (glibc)

attached base packages:
[1] stats     graphics  grDevices utils     datasets  methods   base     

other attached packages:
[1] stringr_1.6.0         lubridate_1.9.5       admiral_1.5.0        
[4] haven_2.5.5           pharmaversesdtm_1.5.0 pharmaverseraw_0.1.1 
[7] dplyr_1.2.1           sdtm.oak_0.2.0       

loaded via a namespace (and not attached):
 [1] gtable_0.3.6       compiler_4.6.1     tidyselect_1.2.1   xml2_1.6.0        
 [5] assertthat_0.2.1   gtsummary_2.5.1    tidyr_1.3.2        systemfonts_1.3.2 
 [9] scales_1.4.0       textshaping_1.0.5  fastmap_1.2.0      ggplot2_4.0.3     
[13] R6_2.6.1           cards_0.8.1        generics_0.1.4     curl_7.1.0        
[17] knitr_1.51         admiraldev_1.5.0   forcats_1.0.1      tibble_3.3.1      
[21] pillar_1.11.1      RColorBrewer_1.1-3 rlang_1.3.0        utf8_1.2.6        
[25] stringi_1.8.7      xfun_0.60          roxygen2_8.0.0     fs_2.1.0          
[29] S7_0.2.2           otel_0.2.0         timechange_0.4.0   cli_3.6.6         
[33] withr_3.0.3        magrittr_2.0.5     digest_0.6.39      grid_4.6.1        
[37] hms_1.1.4          lifecycle_1.0.5    vctrs_0.7.3        evaluate_1.0.5    
[41] glue_1.8.1         farver_2.1.2       ragg_1.5.2         gt_1.3.0          
[45] purrr_1.2.2        tools_4.6.1        pkgconfig_2.0.3    htmltools_0.5.9   

Run finished: 2026-07-19 01:12:24 
